File: Input XRD/2_Ti35.csv
Angle,Intensity
10.0042,17
10.1044,28
10.2047,20
10.305,20
10.4052,16
10.5055,17
10.6058,20
10.7061,22
10.8063,15
10.9066,22
11.0069,20
11.1071,17
11.2074,28
11.3077,14
11.4079,17
11.5082,14
11.6085,21
11.7087,23
11.809,18
11.9093,22
12.0095,17
12.1098,34
12.2101,13
12.3103,22
12.4106,15
12.5109,18
12.6111,14
12.7114,26
12.8117,29
12.9119,21
13.0122,27
13.1125,26
13.2127,16
13.313,18
13.4133,17
13.5135,18
13.6138,24
13.7141,21
13.8143,21
13.9146,29
14.0149,24
14.1151,15
14.2154,18
14.3157,21
14.416,13
14.5162,15
14.6165,21
14.7168,20
14.817,21
14.9173,21
15.0176,27
15.1178,20
15.2181,28
15.3184,21
15.4186,18
15.5189,21
15.6192,23
15.7194,21
15.8197,29
15.92,28
16.0202,10
16.1205,13
16.2208,21
16.321,28
16.4213,22
16.5216,18
16.6218,13
16.7221,31
16.8224,21
16.9226,30
17.0229,17
17.1232,14
17.2234,17
17.3237,18
17.424,20
17.5242,20
17.6245,10
17.7248,15
17.8251,18
17.9253,24
18.0256,18
18.1259,20
18.2261,34
18.3264,15
18.4267,33
18.5269,17
18.6272,20
18.7275,21
18.8277,15
18.928,17
19.0283,22
19.1285,11
19.2288,16
19.3291,15
19.4293,26
19.5296,20
19.6299,28
19.7301,29
19.8304,31
19.9307,26
20.0309,23
20.1312,16
20.2315,20
20.3317,24
20.432,23
20.5323,24
20.6325,22
20.7328,21
20.8331,21
20.9333,20
21.0336,26
21.1339,20
21.2342,9
21.3344,34
21.4347,24
21.535,20
21.6352,30
21.7355,18
21.8358,27
21.936,17
22.0363,21
22.1366,20
22.2368,22
22.3371,21
22.4374,13
22.5376,27
22.6379,18
22.7382,16
22.8384,10
22.9387,22
23.039,29
23.1392,16
23.2395,20
23.3398,16
23.44,20
23.5403,22
23.6406,17
23.7408,10
23.8411,23
23.9414,13
24.0416,13
24.1419,14
24.2422,17
24.3424,13
24.4427,18
24.543,13
24.6432,22
24.7435,17
24.8438,22
24.9441,16
25.0443,16
25.1446,16
25.2449,16
25.3451,9
25.4454,20
25.5457,7
25.6459,14
25.7462,16
25.8465,20
25.9467,15
26.047,10
26.1473,9
26.2475,23
26.3478,11
26.4481,14
26.5483,15
26.6486,18
26.7489,14
26.8491,11
26.9494,8
27.0497,14
27.1499,10
27.2502,14
27.3505,17
27.4507,14
27.551,11
27.6513,13
27.7515,16
27.8518,23
27.9521,14
28.0523,23
28.1526,21
28.2529,10
28.3532,17
28.4534,10
28.5537,22
28.654,13
28.7542,9
28.8545,8
28.9548,16
29.055,13
29.1553,10
29.2556,15
29.3558,15
29.4561,8
29.5564,9
29.6566,15
29.7569,10
29.8572,14
29.9574,16
30.0577,13
30.158,10
30.2582,15
30.3585,20
30.4588,11
30.559,10
30.6593,9
30.7596,13
30.8598,10
30.9601,13
31.0604,9
31.1606,16
31.2609,16
31.3612,14
31.4614,13
31.5617,10
31.662,13
31.7623,9
31.8625,10
31.9628,9
32.0631,9
32.1633,16
32.2636,15
32.3639,9
32.4641,7
32.5644,9
32.6647,18
32.7649,16
32.8652,14
32.9655,9
33.0657,11
33.166,13
33.2663,13
33.3665,10
33.4668,13
33.5671,11
33.6673,8
33.7676,3
33.8679,15
33.9681,16
34.0684,16
34.1687,16
34.2689,10
34.3692,15
34.4695,22
34.5697,13
34.67,11
34.7703,16
34.8705,21
34.9708,33
35.0711,107
35.1713,222
35.2716,73
35.3719,16
35.4722,13
35.5724,10
35.6727,10
35.773,14
35.8732,18
35.9735,16
36.0738,5
36.174,13
36.2743,10
36.3746,13
36.4748,8
36.5751,11
36.6754,16
36.7756,15
36.8759,16
36.9762,15
37.0764,14
37.1767,13
37.277,14
37.3772,13
37.4775,14
37.5778,10
37.678,14
37.7783,10
37.8786,10
37.9788,17
38.0791,18
38.1794,22
38.2796,103
38.3799,74
38.4802,26
38.5804,13
38.6807,17
38.781,13
38.8813,23
38.9815,24
39.0818,18
39.1821,23
39.2823,14
39.3826,18
39.4829,29
39.5831,16
39.6834,15
39.7837,10
39.8839,14
39.9842,42
40.0845,114
40.1847,371
40.285,325
40.3853,119
40.4855,17
40.5858,16
40.6861,13
40.7863,15
40.8866,11
40.9869,8
41.0871,16
41.1874,15
41.2877,13
41.3879,11
41.4882,10
41.5885,11
41.6887,8
41.789,11
41.8893,11
41.9895,5
42.0898,10
42.1901,14
42.2903,7
42.3906,8
42.4909,20
42.5912,7
42.6914,8
42.7917,15
42.892,16
42.9922,9
43.0925,13
43.1928,13
43.293,10
43.3933,14
43.4936,14
43.5938,7
43.6941,11
43.7944,10
43.8946,15
43.9949,17
44.0952,21
44.1954,14
44.2957,16
44.396,10
44.4962,10
44.5965,11
44.6968,17
44.797,13
44.8973,13
44.9976,10
45.0978,11
45.1981,11
45.2984,16
45.3986,13
45.4989,10
45.5992,4
45.6994,10
45.7997,16
45.9,16
46.0003,14
46.1005,14
46.2008,9
46.3011,11
46.4013,11
46.5016,20
46.6019,14
46.7021,14
46.8024,14
46.9027,7
47.0029,11
47.1032,10
47.2035,9
47.3037,22
47.404,15
47.5043,11
47.6045,11
47.7048,14
47.8051,13
47.9053,7
48.0056,5
48.1059,11
48.2061,10
48.3064,5
48.4067,13
48.5069,3
48.6072,10
48.7075,20
48.8077,4
48.908,4
49.0083,11
49.1085,15
49.2088,10
49.3091,5
49.4094,10
49.5096,4
49.6099,10
49.7102,7
49.8104,7
49.9107,20
50.011,9
50.1112,13
50.2115,11
50.3118,14
50.412,10
50.5123,20
50.6126,10
50.7128,10
50.8131,13
50.9134,2
51.0136,8
51.1139,8
51.2142,8
51.3144,11
51.4147,11
51.515,9
51.6152,14
51.7155,17
51.8158,8
51.916,13
52.0163,11
52.1166,8
52.2168,10
52.3171,11
52.4174,5
52.5176,8
52.6179,20
52.7182,17
52.8184,22
52.9187,77
53.019,127
53.1193,84
53.2195,30
53.3198,17
53.4201,8
53.5203,9
53.6206,5
53.7209,9
53.8211,7
53.9214,8
54.0217,10
54.1219,9
54.2222,10
54.3225,13
54.4227,7
54.523,10
54.6233,13
54.7235,10
54.8238,4
54.9241,15
55.0243,4
55.1246,11
55.2249,8
55.3251,8
55.4254,10
55.5257,13
55.6259,9
55.7262,16
55.8265,8
55.9267,9
56.027,8
56.1273,10
56.2275,14
56.3278,8
56.4281,15
56.5284,7
56.6286,14
56.7289,10
56.8292,17
56.9294,7
57.0297,11
57.13,13
57.2302,8
57.3305,9
57.4308,8
57.531,16
57.6313,5
57.7316,13
57.8318,9
57.9321,15
58.0324,11
58.1326,8
58.2329,13
58.3332,20
58.4334,2
58.5337,8
58.634,11
58.7342,9
58.8345,17
58.9348,5
59.035,9
59.1353,9
59.2356,7
59.3358,9
59.4361,13
59.5364,5
59.6366,13
59.7369,10
59.8372,8
59.9374,14
60.0377,5
60.138,10
60.2383,2
60.3385,11
60.4388,10
60.5391,8
60.6393,9
60.7396,8
60.8399,15
60.9401,7
61.0404,9
61.1407,7
61.2409,8
61.3412,13
61.4415,10
61.5417,8
61.642,13
61.7423,8
61.8425,11
61.9428,11
62.0431,10
62.1433,11
62.2436,4
62.3439,10
62.4441,15
62.5444,9
62.6447,7
62.7449,15
62.8452,21
62.9455,7
63.0457,11
63.146,21
63.2463,26
63.3465,10
63.4468,10
63.5471,9
63.6474,7
63.7476,11
63.8479,7
63.9482,7
64.0484,16
64.1487,5
64.249,9
64.3492,13
64.4495,10
64.5498,14
64.65,10
64.7503,9
64.8506,8
64.9508,10
65.0511,9
65.1514,8
65.2516,4
65.3519,4
65.4522,17
65.5524,13
65.6527,8
65.753,10
65.8532,14
65.9535,14
66.0538,10
66.154,14
66.2543,17
66.3546,8
66.4548,9
66.5551,10
66.6554,4
66.7556,13
66.8559,10
66.9562,7
67.0565,9
67.1567,21
67.257,14
67.3573,9
67.4575,13
67.5578,15
67.6581,9
67.7583,15
67.8586,9
67.9589,2
68.0591,11
68.1594,11
68.2597,9
68.3599,7
68.4602,7
68.5605,7
68.6607,4
68.761,20
68.8613,9
68.9615,14
69.0618,16
69.1621,15
69.2623,10
69.3626,8
69.4629,7
69.5631,16
69.6634,9
69.7637,13
69.8639,15
69.9642,20
70.0645,14
70.1647,11
70.265,8
70.3653,14
70.4655,24
70.5658,35
70.6661,90
70.7664,36
70.8666,50
70.9669,20
71.0672,9
71.1674,7
71.2677,11
71.368,17
71.4682,10
71.5685,20
71.6688,11
71.769,7
71.8693,8
71.9696,17
72.0698,13
72.1701,26
72.2704,11
72.3706,10
72.4709,14
72.5712,7
72.6714,10
72.7717,13
72.872,10
72.9722,5
73.0725,9
73.1728,4
73.273,14
73.3733,10
73.4736,7
73.5738,8
73.6741,14
73.7744,21
73.8746,13
73.9749,11
74.0752,8
74.1755,15
74.2757,17
74.376,24
74.4763,28
74.5765,13
74.6768,18
74.7771,15
74.8773,22
74.9776,14
75.0779,11
75.1781,14
75.2784,15
75.3787,15
75.4789,8
75.5792,7
75.6795,9
75.7797,16
75.88,18
75.9803,16
76.0805,24
76.1808,31
76.2811,103
76.3813,181
76.4816,129
76.5819,93
76.6821,81
76.7824,31
76.8827,20
76.9829,26
77.0832,17
77.1835,11
77.2837,24
77.384,15
77.4843,26
77.5845,36
77.6848,37
77.7851,26
77.8854,26
77.9856,18
78.0859,11
78.1862,17
78.2864,9
78.3867,9
78.487,14
78.5872,5
78.6875,17
78.7878,4
78.888,11
78.9883,8
79.0886,5
79.1888,16
79.2891,10
79.3894,11
79.4896,10
79.5899,10
79.6902,16
79.7904,8
79.8907,10
79.991,10
80.0912,7
80.1915,8
80.2918,13
80.392,11
80.4923,10
80.5926,10
80.6928,8
80.7931,13
80.8934,5
80.9936,14
81.0939,9
81.1942,8
81.2945,13
81.3947,16
81.495,15
81.5953,16
81.6955,16
81.7958,8
81.8961,8
81.9963,9
82.0966,17
82.1969,13
82.2971,11
82.3974,8
82.4977,9
82.5979,13
82.6982,13
82.7985,15
82.8987,10
82.999,13
83.0993,10
83.1995,13
83.2998,5
83.4001,4
83.5003,10
83.6006,14
83.7009,14
83.8011,5
83.9014,8
84.0017,9
84.1019,15
84.2022,8
84.3025,7
84.4027,8
84.503,16
84.6033,15
84.7036,5
84.8038,9
84.9041,14
85.0044,8
85.1046,7
85.2049,7
85.3052,11
85.4054,4
85.5057,7
85.606,8
85.7062,7
85.8065,13
85.9068,5
86.007,7
86.1073,8
86.2076,14
86.3078,8
86.4081,14
86.5084,17
86.6086,13
86.7089,5
86.8092,11
86.9094,10
87.0097,21
87.11,16
87.2102,10
87.3105,10
87.4108,14
87.511,4
87.6113,13
87.7116,14
87.8118,18
87.9121,16
88.0124,9
88.1126,7
88.2129,15
88.3132,10
88.4135,11
88.5137,9
88.614,17
88.7143,8
88.8145,11
88.9148,11
89.0151,10
89.1153,8
89.2156,5
89.3159,15
89.4161,9
89.5164,16
89.6167,8
89.7169,8
89.8172,10
89.9175,10
90.0177,16
90.118,3
90.2183,11
90.3185,16
90.4188,9
90.5191,8
90.6193,11
90.7196,11
90.8199,9
90.9201,9
91.0204,16
91.1207,13
91.2209,9
91.3212,11
91.4215,8
91.5217,13
91.622,8
91.7223,10
91.8226,5
91.9228,10
92.0231,8
92.1234,10
92.2236,4
92.3239,10
92.4242,10
92.5244,15
92.6247,35
92.725,58
92.8252,28
92.9255,14
93.0258,40
93.126,17
93.2263,5
93.3266,13
93.4268,13
93.5271,16
93.6274,11
93.7276,10
93.8279,15
93.9282,8
94.0284,8
94.1287,20
94.229,14
94.3292,8
94.4295,9
94.5298,11
94.63,11
94.7303,7
94.8306,5
94.9308,8
95.0311,17
95.1314,8
95.2316,16
95.3319,9
95.4322,5
95.5325,14
95.6327,8
95.733,10
95.8333,13
95.9335,4
96.0338,9
96.1341,20
96.2343,11
96.3346,8
96.4349,10
96.5351,9
96.6354,8
96.7357,11
96.8359,11
96.9362,10
97.0365,4
97.1367,16
97.237,9
97.3373,8
97.4375,10
97.5378,13
97.6381,13
97.7383,10
97.8386,8
97.9389,7
98.0391,4
98.1394,10
98.2397,13
98.3399,10
98.4402,7
98.5405,15
98.6407,11
98.741,9
98.8413,13
98.9416,7
99.0418,14
99.1421,10
99.2424,14
99.3426,10
99.4429,16
99.5432,10
99.6434,11
99.7437,9
99.844,14
99.9442,13
100.044,18
100.145,8
100.245,10
100.345,9
100.446,8
100.546,11
100.646,11
100.746,8
100.847,10
100.947,16
101.047,10
101.147,14
101.248,11
101.348,10
101.448,15
101.549,8
101.649,11
101.749,13
101.849,14
101.95,7
102.05,11
102.15,13
102.25,14
102.351,10
102.451,15
102.551,14
102.651,9
102.752,14
102.852,11
102.952,17
103.053,16
103.153,11
103.253,10
103.353,13
103.454,10
103.554,15
103.654,16
103.754,11
103.855,9
103.955,14
104.055,15
104.155,3
104.256,9
104.356,14
104.456,14
104.557,7
104.657,8
104.757,15
104.857,18
104.958,14
105.058,18
105.158,9
105.258,10
105.359,10
105.459,8
105.559,8
105.659,4
105.76,9
105.86,9
105.96,14
106.061,10
106.161,14
106.261,11
106.361,11
106.462,16
106.562,13
106.662,8
106.762,13
106.863,11
106.963,15
107.063,14
107.163,9
107.264,7
107.364,15
107.464,8
107.565,9
107.665,11
107.765,11
107.865,8
107.966,13
108.066,16
108.166,14
108.266,11
108.367,14
108.467,10
108.567,9
108.668,8
108.768,9
108.868,11
108.968,15
109.069,3
109.169,14
109.269,22
109.369,17
109.47,16
109.57,15
109.67,30
109.77,24
109.871,21
109.971,13
110.071,17
110.172,15
110.272,9
110.372,13
110.472,11
110.573,10
110.673,16
110.773,10
110.873,18
110.974,13
111.074,8
111.174,8
111.274,8
111.375,16
111.475,16
111.575,8
111.676,10
111.776,10
111.876,11
111.976,15
112.077,11
112.177,17
112.277,14
112.377,15
112.478,17
112.578,11
112.678,14
112.778,5
112.879,17
112.979,14
113.079,2
113.18,10
113.28,8
113.38,5
113.48,5
113.581,13
113.681,9
113.781,8
113.881,8
113.982,14
114.082,18
114.182,10
114.282,16
114.383,20
114.483,26
114.583,26
114.684,14
114.784,14
114.884,18
114.984,18
115.085,20
115.185,7
115.285,7
115.385,14
115.486,13
115.586,21
115.686,16
115.787,11
115.887,13
115.987,8
116.087,14
116.188,11
116.288,5
116.388,16
116.488,9
116.589,15
116.689,16
116.789,10
116.889,14
116.99,24
117.09,15
117.19,8
117.291,10
117.391,20
117.491,13
117.591,7
117.692,10
117.792,16
117.892,15
117.992,15
118.093,13
118.193,10
118.293,17
118.393,14
118.494,17
118.594,14
118.694,15
118.795,11
118.895,13
118.995,13
119.095,10
119.196,11
119.296,13
119.396,9
119.496,5
119.597,14
119.697,22
119.797,18
119.897,20
119.998,17
120.098,14
120.198,11
120.299,14
120.399,15
120.499,9
120.599,13
120.7,7
120.8,7
120.9,9
121,16
121.101,18
121.201,17
121.301,14
121.401,10
121.502,8
121.602,10
121.702,20
121.803,7
121.903,11
122.003,23
122.103,39
122.204,48
122.304,45
122.404,41
122.504,20
122.605,11
122.705,33
122.805,29
122.906,18
123.006,14
123.106,11
123.206,14
123.307,13
123.407,10
123.507,14
123.607,22
123.708,17
123.808,11
123.908,7
124.008,18
124.109,11
124.209,14
124.309,8
124.41,11
124.51,11
124.61,7
124.71,13
124.811,11
124.911,17
125.011,16
125.111,16
125.212,5
125.312,20
125.412,11
125.512,14
125.613,11
125.713,9
125.813,11
125.914,16
126.014,7
126.114,7
126.214,18
126.315,20
126.415,16
126.515,9
126.615,13
126.716,15
126.816,13
126.916,13
127.016,9
127.117,13
127.217,15
127.317,14
127.418,22
127.518,8
127.618,11
127.718,11
127.819,14
127.919,10
128.019,16
128.119,14
128.22,13
128.32,14
128.42,8
128.52,17
128.621,13
128.721,13
128.821,16
128.922,24
129.022,11
129.122,9
129.222,18
129.323,9
129.423,8
129.523,21
129.623,16
129.724,14
129.824,24
129.924,17
130.025,11
130.125,15
130.225,13
130.325,33
130.426,10
130.526,18
130.626,14
130.726,16
130.827,9
130.927,13
131.027,14
131.127,13
131.228,11
131.328,18
131.428,13
131.529,14
131.629,10
131.729,11
131.829,13
131.93,10
132.03,13
132.13,14
132.23,10
132.331,8
132.431,11
132.531,13
132.631,15
132.732,8
132.832,13
132.932,9
133.033,9
133.133,14
133.233,14
133.333,13
133.434,16
133.534,15
133.634,15
133.734,11
133.835,16
133.935,13
134.035,13
134.135,14
134.236,13
134.336,13
134.436,11
134.537,9
134.637,7
134.737,17
134.837,10
134.938,13
135.038,11
135.138,3
135.238,14
135.339,20
135.439,16
135.539,13
135.639,14
135.74,13
135.84,8
135.94,14
136.041,17
136.141,13
136.241,13
136.341,21
136.442,21
136.542,11
136.642,21
136.742,15
136.843,14
136.943,18
137.043,14
137.144,13
137.244,15
137.344,15
137.444,10
137.545,11
137.645,9
137.745,14
137.845,13
137.946,10
138.046,14
138.146,15
138.246,15
138.347,9
138.447,14
138.547,9
138.648,13
138.748,15
138.848,15
138.948,21
139.049,13
139.149,8
139.249,17
139.349,5
139.45,14
139.55,13
139.65,20
139.75,22
139.851,39
139.951,18
140.051,48
140.152,55
140.252,53
140.352,72
140.452,52
140.553,40
140.653,27
140.753,21
140.853,29
140.954,23
141.054,28
141.154,54
141.254,34
141.355,20
141.455,17
141.555,14
141.656,20
141.756,7
141.856,16
141.956,10
142.057,13
142.157,11
142.257,14
142.357,14
142.458,16
142.558,14
142.658,7
142.758,18
142.859,10
142.959,11
143.059,14
143.16,15
143.26,11
143.36,20
143.46,13
143.561,15
143.661,16
143.761,7
143.861,10
143.962,16
144.062,15
144.162,4
144.263,15
144.363,18
144.463,8
144.563,14
144.664,18
144.764,18
144.864,15
144.964,7
145.065,14
145.165,13
145.265,13
145.365,8
145.466,17
145.566,8
145.666,13
145.767,10
145.867,11
145.967,14
146.067,7
146.168,10
146.268,22
146.368,14
146.468,15
146.569,9
146.669,10
146.769,14
146.869,15
146.97,16
147.07,5
147.17,11
147.271,9
147.371,11
147.471,17
147.571,14
147.672,9
147.772,16
147.872,7
147.972,10
148.073,9
148.173,18
148.273,9
148.373,5
148.474,8
148.574,15
148.674,15
148.775,11
148.875,9
148.975,17
149.075,11
149.176,16
149.276,17
149.376,27
149.476,16
149.577,15
149.677,14
149.777,17
149.877,16
149.978,20
150.003,14