File: Input XRD/3_Ti666.csv
Angle,Intensity
10.0021,86
10.0982,88
10.1943,88
10.2904,78
10.3864,79
10.4825,72
10.5786,96
10.6747,84
10.7708,82
10.8669,91
10.963,82
11.0591,56
11.1552,69
11.2513,80
11.3473,67
11.4434,81
11.5395,91
11.6356,69
11.7317,79
11.8278,79
11.9239,70
12.02,79
12.1161,80
12.2122,56
12.3082,64
12.4043,76
12.5004,72
12.5965,80
12.6926,60
12.7887,69
12.8848,52
12.9809,84
13.077,63
13.1731,77
13.2691,80
13.3652,72
13.4613,72
13.5574,63
13.6535,69
13.7496,72
13.8457,89
13.9418,48
14.0379,67
14.134,66
14.23,69
14.3261,56
14.4222,55
14.5183,75
14.6144,60
14.7105,60
14.8066,80
14.9027,67
14.9988,66
15.0948,70
15.1909,66
15.287,57
15.3831,66
15.4792,68
15.5753,68
15.6714,76
15.7675,66
15.8636,56
15.9597,54
16.0557,66
16.1518,62
16.2479,72
16.344,65
16.4401,54
16.5362,70
16.6323,82
16.7284,56
16.8245,62
16.9206,56
17.0166,46
17.1127,60
17.2088,67
17.3049,48
17.401,67
17.4971,58
17.5932,45
17.6893,60
17.7854,61
17.8815,52
17.9775,52
18.0736,66
18.1697,65
18.2658,58
18.3619,46
18.458,53
18.5541,62
18.6502,61
18.7463,40
18.8424,51
18.9384,51
19.0345,58
19.1306,63
19.2267,62
19.3228,65
19.4189,44
19.515,61
19.6111,73
19.7072,65
19.8032,60
19.8993,72
19.9954,60
20.0915,50
20.1876,56
20.2837,64
20.3798,51
20.4759,54
20.572,67
20.6681,53
20.7641,51
20.8602,63
20.9563,69
21.0524,63
21.1485,56
21.2446,52
21.3407,54
21.4368,53
21.5329,70
21.629,52
21.725,61
21.8211,56
21.9172,54
22.0133,63
22.1094,55
22.2055,53
22.3016,46
22.3977,53
22.4938,41
22.5899,61
22.6859,70
22.782,50
22.8781,60
22.9742,64
23.0703,69
23.1664,54
23.2625,62
23.3586,37
23.4547,60
23.5508,50
23.6468,41
23.7429,53
23.839,49
23.9351,54
24.0312,52
24.1273,51
24.2234,50
24.3195,41
24.4156,56
24.5116,48
24.6077,57
24.7038,39
24.7999,61
24.896,52
24.9921,64
25.0882,69
25.1843,42
25.2804,40
25.3765,53
25.4725,52
25.5686,53
25.6647,49
25.7608,43
25.8569,51
25.953,48
26.0491,53
26.1452,52
26.2413,70
26.3374,68
26.4334,46
26.5295,62
26.6256,57
26.7217,55
26.8178,70
26.9139,56
27.01,49
27.1061,51
27.2022,48
27.2983,50
27.3943,48
27.4904,58
27.5865,58
27.6826,45
27.7787,66
27.8748,57
27.9709,55
28.067,44
28.1631,45
28.2592,49
28.3552,51
28.4513,36
28.5474,46
28.6435,52
28.7396,49
28.8357,39
28.9318,61
29.0279,48
29.124,67
29.22,54
29.3161,32
29.4122,46
29.5083,46
29.6044,44
29.7005,40
29.7966,54
29.8927,56
29.9888,48
30.0849,45
30.1809,41
30.277,52
30.3731,41
30.4692,54
30.5653,45
30.6614,51
30.7575,43
30.8536,50
30.9497,65
31.0458,56
31.1418,36
31.2379,32
31.334,39
31.4301,57
31.5262,55
31.6223,48
31.7184,46
31.8145,43
31.9106,62
32.0067,44
32.1027,54
32.1988,56
32.2949,46
32.391,39
32.4871,39
32.5832,39
32.6793,41
32.7754,49
32.8715,44
32.9676,49
33.0636,44
33.1597,46
33.2558,42
33.3519,38
33.448,49
33.5441,51
33.6402,45
33.7363,30
33.8324,55
33.9284,32
34.0245,43
34.1206,45
34.2167,58
34.3128,34
34.4089,53
34.505,52
34.6011,50
34.6972,62
34.7933,77
34.8893,127
34.9854,223
35.0815,137
35.1776,101
35.2737,78
35.3698,62
35.4659,49
35.562,52
35.6581,56
35.7542,50
35.8502,53
35.9463,45
36.0424,73
36.1385,31
36.2346,45
36.3307,49
36.4268,45
36.5229,43
36.619,41
36.7151,51
36.8111,52
36.9072,54
37.0033,52
37.0994,41
37.1955,46
37.2916,43
37.3877,54
37.4838,56
37.5799,36
37.676,50
37.772,56
37.8681,58
37.9642,51
38.0603,63
38.1564,73
38.2525,157
38.3486,93
38.4447,57
38.5408,29
38.6368,54
38.7329,54
38.829,44
38.9251,50
39.0212,55
39.1173,54
39.2134,61
39.3095,45
39.4056,62
39.5017,58
39.5977,53
39.6938,56
39.7899,102
39.886,197
39.9821,1896
40.0782,1076
40.1743,294
40.2704,92
40.3665,70
40.4626,88
40.5586,106
40.6547,87
40.7508,104
40.8469,102
40.943,98
41.0391,65
41.1352,69
41.2313,50
41.3274,55
41.4235,53
41.5195,45
41.6156,43
41.7117,39
41.8078,41
41.9039,43
42,53
42.0961,43
42.1922,48
42.2883,42
42.3844,41
42.4804,49
42.5765,54
42.6726,42
42.7687,40
42.8648,52
42.9609,43
43.057,44
43.1531,51
43.2492,43
43.3452,38
43.4413,42
43.5374,45
43.6335,41
43.7296,41
43.8257,48
43.9218,40
44.0179,41
44.114,49
44.2101,44
44.3061,37
44.4022,48
44.4983,57
44.5944,51
44.6905,55
44.7866,42
44.8827,44
44.9788,42
45.0749,44
45.171,40
45.267,45
45.3631,49
45.4592,32
45.5553,48
45.6514,52
45.7475,37
45.8436,29
45.9397,43
46.0358,44
46.1319,39
46.2279,38
46.324,44
46.4201,34
46.5162,40
46.6123,51
46.7084,43
46.8045,41
46.9006,39
46.9967,40
47.0928,41
47.1888,39
47.2849,45
47.381,46
47.4771,40
47.5732,45
47.6693,44
47.7654,37
47.8615,31
47.9576,39
48.0536,38
48.1497,51
48.2458,33
48.3419,37
48.438,62
48.5341,46
48.6302,34
48.7263,41
48.8224,39
48.9185,50
49.0145,37
49.1106,53
49.2067,57
49.3028,43
49.3989,40
49.495,58
49.5911,37
49.6872,44
49.7833,38
49.8794,32
49.9754,39
50.0715,48
50.1676,38
50.2637,43
50.3598,39
50.4559,32
50.552,41
50.6481,31
50.7442,51
50.8403,41
50.9363,28
51.0324,34
51.1285,41
51.2246,54
51.3207,31
51.4168,41
51.5129,39
51.609,44
51.7051,32
51.8012,36
51.8972,40
51.9933,40
52.0894,49
52.1855,33
52.2816,37
52.3777,38
52.4738,43
52.5699,55
52.666,64
52.762,138
52.8581,97
52.9542,82
53.0503,53
53.1464,46
53.2425,29
53.3386,45
53.4347,34
53.5308,27
53.6269,39
53.7229,39
53.819,44
53.9151,45
54.0112,42
54.1073,38
54.2034,42
54.2995,49
54.3956,33
54.4917,40
54.5878,51
54.6838,43
54.7799,42
54.876,46
54.9721,41
55.0682,53
55.1643,42
55.2604,49
55.3565,33
55.4526,36
55.5487,39
55.6447,34
55.7408,45
55.8369,48
55.933,38
56.0291,33
56.1252,33
56.2213,39
56.3174,41
56.4135,38
56.5096,46
56.6056,32
56.7017,38
56.7978,53
56.8939,41
56.99,33
57.0861,40
57.1822,36
57.2783,48
57.3744,41
57.4704,46
57.5665,32
57.6626,44
57.7587,49
57.8548,49
57.9509,48
58.047,27
58.1431,40
58.2392,41
58.3353,33
58.4313,34
58.5274,39
58.6235,56
58.7196,30
58.8157,42
58.9118,48
59.0079,39
59.104,44
59.2001,32
59.2962,46
59.3922,41
59.4883,40
59.5844,48
59.6805,48
59.7766,39
59.8727,51
59.9688,32
60.0649,45
60.161,50
60.2571,31
60.3531,32
60.4492,34
60.5453,48
60.6414,48
60.7375,55
60.8336,41
60.9297,37
61.0258,45
61.1219,51
61.218,34
61.314,37
61.4101,39
61.5062,40
61.6023,39
61.6984,36
61.7945,31
61.8906,43
61.9867,41
62.0828,45
62.1788,29
62.2749,38
62.371,41
62.4671,44
62.5632,46
62.6593,62
62.7554,75
62.8515,67
62.9476,51
63.0437,57
63.1397,45
63.2358,45
63.3319,44
63.428,40
63.5241,48
63.6202,37
63.7163,42
63.8124,44
63.9085,37
64.0046,44
64.1006,45
64.1967,44
64.2928,37
64.3889,43
64.485,56
64.5811,45
64.6772,41
64.7733,37
64.8694,36
64.9655,32
65.0615,32
65.1576,41
65.2537,29
65.3498,34
65.4459,53
65.542,30
65.6381,30
65.7342,50
65.8303,45
65.9264,45
66.0224,41
66.1185,34
66.2146,45
66.3107,45
66.4068,36
66.5029,36
66.599,37
66.6951,48
66.7912,43
66.8872,48
66.9833,34
67.0794,33
67.1755,43
67.2716,40
67.3677,44
67.4638,37
67.5599,46
67.656,43
67.7521,53
67.8481,54
67.9442,50
68.0403,46
68.1364,52
68.2325,41
68.3286,51
68.4247,36
68.5208,46
68.6169,38
68.713,44
68.809,41
68.9051,42
69.0012,41
69.0973,41
69.1934,41
69.2895,46
69.3856,42
69.4817,51
69.5778,39
69.6739,44
69.7699,40
69.866,29
69.9621,51
70.0582,53
70.1543,50
70.2504,50
70.3465,58
70.4426,53
70.5387,55
70.6348,63
70.7308,55
70.8269,56
70.923,53
71.0191,53
71.1152,55
71.2113,61
71.3074,52
71.4035,56
71.4996,45
71.5956,40
71.6917,39
71.7878,55
71.8839,54
71.98,39
72.0761,33
72.1722,42
72.2683,44
72.3644,39
72.4605,52
72.5565,36
72.6526,49
72.7487,49
72.8448,53
72.9409,45
73.037,41
73.1331,41
73.2292,36
73.3253,50
73.4214,48
73.5174,45
73.6135,43
73.7096,36
73.8057,38
73.9018,41
73.9979,33
74.094,45
74.1901,44
74.2862,65
74.3823,43
74.4783,53
74.5744,48
74.6705,62
74.7666,45
74.8627,49
74.9588,50
75.0549,41
75.151,48
75.2471,51
75.3432,50
75.4392,49
75.5353,54
75.6314,48
75.7275,66
75.8236,102
75.9197,177
76.0158,157
76.1119,126
76.208,90
76.304,68
76.4001,44
76.4962,63
76.5923,52
76.6884,74
76.7845,70
76.8806,79
76.9767,174
77.0728,550
77.1689,713
77.2649,308
77.361,397
77.4571,172
77.5532,65
77.6493,54
77.7454,51
77.8415,55
77.9376,42
78.0337,48
78.1298,51
78.2258,56
78.3219,39
78.418,57
78.5141,45
78.6102,40
78.7063,46
78.8024,53
78.8985,42
78.9946,45
79.0907,37
79.1867,38
79.2828,45
79.3789,41
79.475,39
79.5711,45
79.6672,33
79.7633,44
79.8594,46
79.9555,50
80.0516,39
80.1476,41
80.2437,44
80.3398,43
80.4359,40
80.532,41
80.6281,48
80.7242,34
80.8203,44
80.9164,46
81.0124,50
81.1085,45
81.2046,26
81.3007,48
81.3968,29
81.4929,42
81.589,37
81.6851,48
81.7812,54
81.8773,39
81.9733,37
82.0694,33
82.1655,49
82.2616,39
82.3577,41
82.4538,49
82.5499,43
82.646,32
82.7421,52
82.8382,44
82.9342,49
83.0303,37
83.1264,41
83.2225,31
83.3186,30
83.4147,42
83.5108,46
83.6069,38
83.703,46
83.7991,41
83.8951,32
83.9912,38
84.0873,53
84.1834,40
84.2795,34
84.3756,29
84.4717,42
84.5678,36
84.6639,39
84.76,39
84.856,40
84.9521,48
85.0482,60
85.1443,42
85.2404,48
85.3365,46
85.4326,45
85.5287,38
85.6248,48
85.7208,58
85.8169,49
85.913,30
86.0091,38
86.1052,50
86.2013,51
86.2974,42
86.3935,50
86.4896,84
86.5857,86
86.6817,72
86.7778,66
86.8739,49
86.97,46
87.0661,42
87.1622,36
87.2583,40
87.3544,55
87.4505,48
87.5466,44
87.6426,36
87.7387,43
87.8348,49
87.9309,39
88.027,38
88.1231,52
88.2192,48
88.3153,48
88.4114,46
88.5075,40
88.6035,49
88.6996,45
88.7957,38
88.8918,51
88.9879,54
89.084,43
89.1801,37
89.2762,49
89.3723,34
89.4684,29
89.5644,36
89.6605,58
89.7566,36
89.8527,28
89.9488,36
90.0449,38
90.141,34
90.2371,37
90.3332,41
90.4292,40
90.5253,43
90.6214,39
90.7175,29
90.8136,43
90.9097,32
91.0058,43
91.1019,41
91.198,30
91.2941,32
91.3901,51
91.4862,49
91.5823,33
91.6784,45
91.7745,48
91.8706,44
91.9667,34
92.0628,38
92.1589,38
92.255,37
92.351,48
92.4471,51
92.5432,44
92.6393,43
92.7354,51
92.8315,33
92.9276,26
93.0237,42
93.1198,24
93.2159,44
93.3119,40
93.408,30
93.5041,38
93.6002,40
93.6963,32
93.7924,45
93.8885,48
93.9846,40
94.0807,44
94.1768,38
94.2728,41
94.3689,37
94.465,51
94.5611,33
94.6572,51
94.7533,39
94.8494,37
94.9455,34
95.0416,54
95.1376,38
95.2337,40
95.3298,43
95.4259,38
95.522,34
95.6181,49
95.7142,39
95.8103,45
95.9064,52
96.0025,41
96.0985,40
96.1946,38
96.2907,39
96.3868,44
96.4829,38
96.579,57
96.6751,46
96.7712,40
96.8673,44
96.9634,43
97.0594,37
97.1555,45
97.2516,32
97.3477,43
97.4438,44
97.5399,50
97.636,37
97.7321,38
97.8282,36
97.9243,34
98.0203,52
98.1164,36
98.2125,40
98.3086,38
98.4047,44
98.5008,37
98.5969,50
98.693,45
98.7891,50
98.8852,48
98.9812,56
99.0773,46
99.1734,36
99.2695,41
99.3656,36
99.4617,50
99.5578,43
99.6539,45
99.75,41
99.846,48
99.9421,48
100.038,42
100.134,44
100.23,51
100.326,33
100.423,46
100.519,34
100.615,42
100.711,45
100.807,41
100.903,44
100.999,42
101.095,54
101.191,43
101.287,36
101.383,32
101.48,46
101.576,40
101.672,67
101.768,60
101.864,67
101.96,100
102.056,115
102.152,91
102.248,72
102.344,73
102.44,72
102.537,57
102.633,56
102.729,48
102.825,53
102.921,39
103.017,45
103.113,40
103.209,49
103.305,40
103.401,46
103.497,34
103.594,33
103.69,40
103.786,42
103.882,42
103.978,48
104.074,54
104.17,41
104.266,48
104.362,39
104.458,28
104.554,50
104.651,45
104.747,37
104.843,28
104.939,46
105.035,46
105.131,32
105.227,46
105.323,43
105.419,43
105.515,41
105.611,37
105.708,49
105.804,39
105.9,29
105.996,51
106.092,40
106.188,49
106.284,36
106.38,53
106.476,48
106.572,42
106.668,42
106.765,55
106.861,48
106.957,52
107.053,50
107.149,42
107.245,29
107.341,31
107.437,43
107.533,45
107.629,44
107.725,46
107.822,40
107.918,32
108.014,43
108.11,43
108.206,52
108.302,42
108.398,34
108.494,48
108.59,57
108.686,54
108.782,56
108.878,50
108.975,38
109.071,48
109.167,68
109.263,53
109.359,51
109.455,43
109.551,41
109.647,61
109.743,51
109.839,42
109.935,32
110.032,40
110.128,38
110.224,45
110.32,40
110.416,50
110.512,46
110.608,40
110.704,56
110.8,31
110.896,46
110.992,49
111.089,41
111.185,32
111.281,51
111.377,50
111.473,51
111.569,28
111.665,33
111.761,42
111.857,42
111.953,38
112.049,49
112.146,48
112.242,41
112.338,41
112.434,50
112.53,51
112.626,29
112.722,48
112.818,45
112.914,45
113.01,37
113.106,37
113.203,34
113.299,45
113.395,43
113.491,53
113.587,51
113.683,30
113.779,50
113.875,43
113.971,42
114.067,29
114.163,44
114.26,42
114.356,42
114.452,48
114.548,49
114.644,38
114.74,48
114.836,46
114.932,29
115.028,44
115.124,37
115.22,30
115.317,38
115.413,31
115.509,40
115.605,37
115.701,43
115.797,57
115.893,40
115.989,57
116.085,48
116.181,51
116.277,41
116.373,43
116.47,36
116.566,32
116.662,43
116.758,33
116.854,61
116.95,42
117.046,45
117.142,56
117.238,49
117.334,39
117.43,43
117.527,41
117.623,45
117.719,32
117.815,49
117.911,54
118.007,41
118.103,40
118.199,40
118.295,62
118.391,37
118.487,40
118.584,58
118.68,65
118.776,99
118.872,99
118.968,103
119.064,80
119.16,68
119.256,74
119.352,65
119.448,72
119.544,62
119.641,64
119.737,48
119.833,40
119.929,42
120.025,43
120.121,49
120.217,43
120.313,40
120.409,34
120.505,53
120.601,43
120.698,44
120.794,55
120.89,36
120.986,48
121.082,46
121.178,53
121.274,43
121.37,49
121.466,40
121.562,40
121.658,40
121.755,50
121.851,39
121.947,55
122.043,37
122.139,49
122.235,46
122.331,60
122.427,41
122.523,32
122.619,51
122.715,57
122.812,43
122.908,42
123.004,48
123.1,42
123.196,50
123.292,49
123.388,39
123.484,55
123.58,44
123.676,48
123.772,40
123.868,49
123.965,43
124.061,43
124.157,38
124.253,29
124.349,43
124.445,45
124.541,49
124.637,57
124.733,46
124.829,33
124.925,46
125.022,38
125.118,54
125.214,43
125.31,30
125.406,39
125.502,31
125.598,50
125.694,41
125.79,43
125.886,49
125.982,34
126.079,50
126.175,39
126.271,45
126.367,37
126.463,46
126.559,46
126.655,65
126.751,42
126.847,53
126.943,64
127.039,38
127.136,57
127.232,43
127.328,49
127.424,52
127.52,43
127.616,50
127.712,58
127.808,31
127.904,45
128,38
128.096,51
128.193,50
128.289,62
128.385,40
128.481,48
128.577,33
128.673,44
128.769,44
128.865,46
128.961,44
129.057,53
129.153,45
129.25,52
129.346,39
129.442,36
129.538,31
129.634,37
129.73,45
129.826,20
129.922,44
130.018,52
130.114,40
130.21,42
130.307,37
130.403,48
130.499,45
130.595,50
130.691,52
130.787,57
130.883,53
130.979,32
131.075,50
131.171,54
131.267,54
131.364,41
131.46,45
131.556,32
131.652,54
131.748,41
131.844,48
131.94,34
132.036,52
132.132,40
132.228,50
132.324,51
132.42,39
132.517,64
132.613,44
132.709,46
132.805,38
132.901,50
132.997,54
133.093,42
133.189,45
133.285,52
133.381,36
133.477,53
133.574,51
133.67,34
133.766,49
133.862,49
133.958,48
134.054,40
134.15,54
134.246,58
134.342,56
134.438,36
134.534,51
134.631,32
134.727,40
134.823,37
134.919,44
135.015,43
135.111,40
135.207,34
135.303,40
135.399,48
135.495,48
135.591,46
135.688,44
135.784,46
135.88,44
135.976,43
136.072,55
136.168,48
136.264,43
136.36,42
136.456,46
136.552,50
136.648,49
136.745,49
136.841,44
136.937,52
137.033,43
137.129,53
137.225,48
137.321,56
137.417,40
137.513,53
137.609,54
137.705,37
137.802,41
137.898,62
137.994,57
138.09,56
138.186,56
138.282,54
138.378,64
138.474,68
138.57,79
138.666,106
138.762,138
138.859,158
138.955,136
139.051,126
139.147,93
139.243,96
139.339,84
139.435,78
139.531,104
139.627,102
139.723,101
139.819,86
139.915,75
140.012,56
140.108,61
140.204,53
140.3,75
140.396,45
140.492,55
140.588,55
140.684,53
140.78,42
140.876,45
140.972,50
141.069,46
141.165,62
141.261,46
141.357,28
141.453,52
141.549,42
141.645,51
141.741,56
141.837,64
141.933,46
142.029,58
142.126,46
142.222,54
142.318,56
142.414,40
142.51,64
142.606,42
142.702,51
142.798,55
142.894,55
142.99,40
143.086,50
143.183,40
143.279,51
143.375,50
143.471,49
143.567,43
143.663,51
143.759,51
143.855,56
143.951,39
144.047,56
144.143,56
144.24,57
144.336,56
144.432,54
144.528,49
144.624,39
144.72,52
144.816,52
144.912,54
145.008,52
145.104,58
145.2,46
145.297,43
145.393,50
145.489,58
145.585,48
145.681,63
145.777,42
145.873,46
145.969,60
146.065,53
146.161,54
146.257,50
146.354,48
146.45,55
146.546,57
146.642,56
146.738,53
146.834,61
146.93,72
147.026,64
147.122,70
147.218,102
147.314,109
147.41,118
147.507,185
147.603,185
147.699,233
147.795,280
147.891,298
147.987,264
148.083,220
148.179,191
148.275,172
148.371,136
148.467,155
148.564,136
148.66,161
148.756,161
148.852,158
148.948,170
149.044,171
149.14,114
149.236,112
149.332,84
149.428,80
149.524,70
149.621,61
149.717,63
149.813,66
149.909,55
150.005,52