File: Input XRD/4_TC11-C.csv
Angle,Intensity
10.0021,88
10.0982,100
10.1943,94
10.2904,69
10.3864,90
10.4825,106
10.5786,94
10.6747,87
10.7708,90
10.8669,92
10.963,75
11.0591,76
11.1552,112
11.2513,88
11.3473,84
11.4434,93
11.5395,100
11.6356,86
11.7317,96
11.8278,91
11.9239,102
12.02,93
12.1161,98
12.2122,80
12.3082,79
12.4043,80
12.5004,90
12.5965,88
12.6926,92
12.7887,92
12.8848,85
12.9809,101
13.077,85
13.1731,91
13.2691,67
13.3652,81
13.4613,75
13.5574,96
13.6535,89
13.7496,78
13.8457,81
13.9418,82
14.0379,90
14.134,96
14.23,90
14.3261,109
14.4222,102
14.5183,96
14.6144,68
14.7105,91
14.8066,87
14.9027,81
14.9988,77
15.0948,88
15.1909,70
15.287,84
15.3831,84
15.4792,87
15.5753,82
15.6714,74
15.7675,99
15.8636,81
15.9597,86
16.0557,82
16.1518,85
16.2479,82
16.344,86
16.4401,92
16.5362,76
16.6323,86
16.7284,101
16.8245,92
16.9206,86
17.0166,84
17.1127,97
17.2088,91
17.3049,82
17.401,92
17.4971,103
17.5932,101
17.6893,94
17.7854,80
17.8815,85
17.9775,84
18.0736,76
18.1697,86
18.2658,92
18.3619,88
18.458,94
18.5541,80
18.6502,94
18.7463,103
18.8424,66
18.9384,94
19.0345,101
19.1306,94
19.2267,90
19.3228,87
19.4189,101
19.515,96
19.6111,85
19.7072,94
19.8032,86
19.8993,89
19.9954,68
20.0915,89
20.1876,87
20.2837,88
20.3798,89
20.4759,77
20.572,60
20.6681,68
20.7641,96
20.8602,66
20.9563,66
21.0524,82
21.1485,76
21.2446,87
21.3407,78
21.4368,100
21.5329,88
21.629,74
21.725,93
21.8211,70
21.9172,75
22.0133,82
22.1094,87
22.2055,64
22.3016,87
22.3977,89
22.4938,76
22.5899,90
22.6859,88
22.782,86
22.8781,84
22.9742,90
23.0703,73
23.1664,88
23.2625,75
23.3586,82
23.4547,65
23.5508,62
23.6468,65
23.7429,58
23.839,80
23.9351,63
24.0312,67
24.1273,65
24.2234,78
24.3195,62
24.4156,85
24.5116,85
24.6077,81
24.7038,57
24.7999,69
24.896,79
24.9921,75
25.0882,67
25.1843,55
25.2804,65
25.3765,66
25.4725,58
25.5686,70
25.6647,70
25.7608,58
25.8569,68
25.953,62
26.0491,55
26.1452,62
26.2413,63
26.3374,63
26.4334,60
26.5295,58
26.6256,74
26.7217,58
26.8178,69
26.9139,70
27.01,56
27.1061,66
27.2022,69
27.2983,68
27.3943,49
27.4904,46
27.5865,61
27.6826,43
27.7787,41
27.8748,65
27.9709,63
28.067,46
28.1631,60
28.2592,63
28.3552,57
28.4513,56
28.5474,67
28.6435,56
28.7396,60
28.8357,51
28.9318,70
29.0279,44
29.124,56
29.22,58
29.3161,60
29.4122,58
29.5083,58
29.6044,65
29.7005,55
29.7966,49
29.8927,53
29.9888,54
30.0849,53
30.1809,66
30.277,58
30.3731,69
30.4692,57
30.5653,69
30.6614,58
30.7575,56
30.8536,57
30.9497,44
31.0458,57
31.1418,53
31.2379,62
31.334,66
31.4301,55
31.5262,67
31.6223,48
31.7184,57
31.8145,46
31.9106,69
32.0067,48
32.1027,65
32.1988,65
32.2949,58
32.391,40
32.4871,55
32.5832,46
32.6793,49
32.7754,49
32.8715,52
32.9676,63
33.0636,54
33.1597,56
33.2558,40
33.3519,53
33.448,34
33.5441,53
33.6402,49
33.7363,56
33.8324,55
33.9284,50
34.0245,69
34.1206,57
34.2167,63
34.3128,62
34.4089,63
34.505,73
34.6011,77
34.6972,92
34.7933,191
34.8893,384
34.9854,689
35.0815,814
35.1776,359
35.2737,105
35.3698,76
35.4659,65
35.562,56
35.6581,55
35.7542,68
35.8502,57
35.9463,49
36.0424,66
36.1385,68
36.2346,51
36.3307,65
36.4268,53
36.5229,53
36.619,45
36.7151,68
36.8111,57
36.9072,68
37.0033,58
37.0994,41
37.1955,51
37.2916,42
37.3877,54
37.4838,46
37.5799,42
37.676,53
37.772,67
37.8681,53
37.9642,58
38.0603,60
38.1564,64
38.2525,54
38.3486,54
38.4447,62
38.5408,67
38.6368,61
38.7329,55
38.829,60
38.9251,68
39.0212,78
39.1173,48
39.2134,66
39.3095,64
39.4056,70
39.5017,64
39.5977,70
39.6938,100
39.7899,120
39.886,105
39.9821,118
40.0782,110
40.1743,82
40.2704,66
40.3665,65
40.4626,42
40.5586,57
40.6547,54
40.7508,36
40.8469,57
40.943,58
41.0391,49
41.1352,51
41.2313,57
41.3274,48
41.4235,60
41.5195,56
41.6156,49
41.7117,50
41.8078,46
41.9039,56
42,49
42.0961,56
42.1922,68
42.2883,63
42.3844,40
42.4804,51
42.5765,33
42.6726,53
42.7687,53
42.8648,43
42.9609,53
43.057,41
43.1531,67
43.2492,57
43.3452,41
43.4413,53
43.5374,57
43.6335,45
43.7296,60
43.8257,40
43.9218,49
44.0179,45
44.114,49
44.2101,62
44.3061,50
44.4022,55
44.4983,42
44.5944,42
44.6905,50
44.7866,46
44.8827,49
44.9788,57
45.0749,42
45.171,40
45.267,57
45.3631,42
45.4592,45
45.5553,46
45.6514,61
45.7475,51
45.8436,49
45.9397,37
46.0358,61
46.1319,60
46.2279,39
46.324,52
46.4201,66
46.5162,44
46.6123,52
46.7084,44
46.8045,60
46.9006,55
46.9967,62
47.0928,66
47.1888,42
47.2849,63
47.381,52
47.4771,42
47.5732,42
47.6693,49
47.7654,42
47.8615,45
47.9576,49
48.0536,40
48.1497,50
48.2458,43
48.3419,44
48.438,43
48.5341,54
48.6302,41
48.7263,37
48.8224,44
48.9185,34
49.0145,42
49.1106,42
49.2067,43
49.3028,40
49.3989,50
49.495,58
49.5911,41
49.6872,53
49.7833,53
49.8794,48
49.9754,48
50.0715,43
50.1676,37
50.2637,40
50.3598,49
50.4559,62
50.552,48
50.6481,48
50.7442,40
50.8403,42
50.9363,49
51.0324,67
51.1285,60
51.2246,56
51.3207,40
51.4168,45
51.5129,44
51.609,52
51.7051,62
51.8012,38
51.8972,41
51.9933,43
52.0894,48
52.1855,63
52.2816,48
52.3777,64
52.4738,65
52.5699,105
52.666,144
52.762,183
52.8581,543
52.9542,582
53.0503,407
53.1464,111
53.2425,56
53.3386,56
53.4347,45
53.5308,45
53.6269,37
53.7229,46
53.819,44
53.9151,51
54.0112,24
54.1073,54
54.2034,49
54.2995,52
54.3956,52
54.4917,40
54.5878,36
54.6838,46
54.7799,45
54.876,44
54.9721,54
55.0682,56
55.1643,48
55.2604,45
55.3565,39
55.4526,48
55.5487,36
55.6447,50
55.7408,39
55.8369,46
55.933,55
56.0291,52
56.1252,41
56.2213,32
56.3174,51
56.4135,42
56.5096,40
56.6056,48
56.7017,46
56.7978,44
56.8939,38
56.99,46
57.0861,55
57.1822,49
57.2783,44
57.3744,34
57.4704,44
57.5665,42
57.6626,48
57.7587,51
57.8548,41
57.9509,45
58.047,51
58.1431,29
58.2392,52
58.3353,39
58.4313,48
58.5274,42
58.6235,38
58.7196,52
58.8157,34
58.9118,46
59.0079,57
59.104,32
59.2001,38
59.2962,40
59.3922,49
59.4883,43
59.5844,46
59.6805,45
59.7766,50
59.8727,53
59.9688,57
60.0649,37
60.161,34
60.2571,26
60.3531,48
60.4492,66
60.5453,45
60.6414,45
60.7375,42
60.8336,31
60.9297,49
61.0258,38
61.1219,41
61.218,44
61.314,51
61.4101,43
61.5062,37
61.6023,51
61.6984,57
61.7945,44
61.8906,50
61.9867,44
62.0828,49
62.1788,48
62.2749,55
62.371,54
62.4671,42
62.5632,51
62.6593,53
62.7554,52
62.8515,58
62.9476,56
63.0437,54
63.1397,46
63.2358,51
63.3319,55
63.428,37
63.5241,43
63.6202,41
63.7163,34
63.8124,25
63.9085,34
64.0046,50
64.1006,46
64.1967,42
64.2928,46
64.3889,55
64.485,32
64.5811,55
64.6772,41
64.7733,36
64.8694,41
64.9655,54
65.0615,48
65.1576,46
65.2537,53
65.3498,53
65.4459,39
65.542,46
65.6381,45
65.7342,37
65.8303,53
65.9264,42
66.0224,45
66.1185,44
66.2146,51
66.3107,42
66.4068,38
66.5029,43
66.599,50
66.6951,52
66.7912,53
66.8872,34
66.9833,36
67.0794,60
67.1755,50
67.2716,43
67.3677,39
67.4638,40
67.5599,44
67.656,32
67.7521,46
67.8481,51
67.9442,46
68.0403,46
68.1364,58
68.2325,46
68.3286,44
68.4247,58
68.5208,48
68.6169,37
68.713,40
68.809,65
68.9051,58
69.0012,58
69.0973,56
69.1934,50
69.2895,65
69.3856,56
69.4817,85
69.5778,63
69.6739,73
69.7699,77
69.866,109
69.9621,132
70.0582,176
70.1543,258
70.2504,372
70.3465,579
70.4426,1599
70.5387,1305
70.6348,777
70.7308,724
70.8269,235
70.923,165
71.0191,167
71.1152,110
71.2113,112
71.3074,89
71.4035,63
71.4996,80
71.5956,49
71.6917,63
71.7878,53
71.8839,52
71.98,68
72.0761,52
72.1722,60
72.2683,58
72.3644,53
72.4605,36
72.5565,52
72.6526,45
72.7487,63
72.8448,39
72.9409,55
73.037,57
73.1331,57
73.2292,45
73.3253,39
73.4214,45
73.5174,56
73.6135,57
73.7096,49
73.8057,41
73.9018,57
73.9979,61
74.094,68
74.1901,96
74.2862,96
74.3823,91
74.4783,75
74.5744,81
74.6705,51
74.7666,50
74.8627,42
74.9588,42
75.0549,67
75.151,36
75.2471,55
75.3432,61
75.4392,62
75.5353,53
75.6314,74
75.7275,87
75.8236,96
75.9197,125
76.0158,140
76.1119,196
76.208,378
76.304,351
76.4001,208
76.4962,220
76.5923,93
76.6884,63
76.7845,69
76.8806,69
76.9767,90
77.0728,96
77.1689,94
77.2649,125
77.361,177
77.4571,268
77.5532,245
77.6493,151
77.7454,149
77.8415,57
77.9376,37
78.0337,63
78.1298,39
78.2258,57
78.3219,54
78.418,37
78.5141,51
78.6102,65
78.7063,49
78.8024,42
78.8985,48
78.9946,54
79.0907,56
79.1867,37
79.2828,37
79.3789,60
79.475,40
79.5711,64
79.6672,45
79.7633,46
79.8594,36
79.9555,43
80.0516,46
80.1476,42
80.2437,41
80.3398,41
80.4359,54
80.532,33
80.6281,51
80.7242,36
80.8203,43
80.9164,45
81.0124,37
81.1085,41
81.2046,52
81.3007,43
81.3968,33
81.4929,41
81.589,48
81.6851,49
81.7812,40
81.8773,54
81.9733,45
82.0694,50
82.1655,40
82.2616,60
82.3577,50
82.4538,39
82.5499,46
82.646,36
82.7421,44
82.8382,42
82.9342,44
83.0303,44
83.1264,43
83.2225,49
83.3186,49
83.4147,48
83.5108,38
83.6069,37
83.703,43
83.7991,45
83.8951,48
83.9912,40
84.0873,37
84.1834,39
84.2795,43
84.3756,42
84.4717,42
84.5678,49
84.6639,26
84.76,39
84.856,37
84.9521,51
85.0482,53
85.1443,41
85.2404,42
85.3365,38
85.4326,55
85.5287,36
85.6248,40
85.7208,43
85.8169,32
85.913,54
86.0091,41
86.1052,32
86.2013,45
86.2974,34
86.3935,44
86.4896,46
86.5857,39
86.6817,60
86.7778,32
86.8739,32
86.97,34
87.0661,56
87.1622,46
87.2583,50
87.3544,55
87.4505,42
87.5466,46
87.6426,53
87.7387,37
87.8348,45
87.9309,41
88.027,42
88.1231,43
88.2192,34
88.3153,41
88.4114,38
88.5075,37
88.6035,52
88.6996,36
88.7957,43
88.8918,41
88.9879,41
89.084,44
89.1801,48
89.2762,52
89.3723,43
89.4684,32
89.5644,49
89.6605,38
89.7566,39
89.8527,43
89.9488,43
90.0449,53
90.141,39
90.2371,43
90.3332,43
90.4292,50
90.5253,49
90.6214,52
90.7175,52
90.8136,34
90.9097,50
91.0058,46
91.1019,31
91.198,42
91.2941,50
91.3901,49
91.4862,44
91.5823,53
91.6784,50
91.7745,49
91.8706,62
91.9667,78
92.0628,76
92.1589,75
92.255,92
92.351,174
92.4471,311
92.5432,196
92.6393,128
92.7354,177
92.8315,132
92.9276,73
93.0237,50
93.1198,51
93.2159,39
93.3119,39
93.408,45
93.5041,45
93.6002,44
93.6963,52
93.7924,38
93.8885,49
93.9846,42
94.0807,43
94.1768,36
94.2728,37
94.3689,48
94.465,38
94.5611,51
94.6572,42
94.7533,28
94.8494,41
94.9455,36
95.0416,44
95.1376,48
95.2337,51
95.3298,37
95.4259,41
95.522,34
95.6181,50
95.7142,39
95.8103,40
95.9064,41
96.0025,42
96.0985,36
96.1946,38
96.2907,50
96.3868,40
96.4829,44
96.579,33
96.6751,42
96.7712,42
96.8673,40
96.9634,36
97.0594,37
97.1555,39
97.2516,40
97.3477,43
97.4438,42
97.5399,37
97.636,38
97.7321,42
97.8282,51
97.9243,41
98.0203,40
98.1164,46
98.2125,51
98.3086,46
98.4047,46
98.5008,28
98.5969,50
98.693,40
98.7891,58
98.8852,42
98.9812,36
99.0773,41
99.1734,46
99.2695,41
99.3656,38
99.4617,56
99.5578,39
99.6539,40
99.75,39
99.846,30
99.9421,28
100.038,45
100.134,38
100.23,39
100.326,40
100.423,51
100.519,54
100.615,41
100.711,42
100.807,52
100.903,51
100.999,32
101.095,40
101.191,45
101.287,51
101.383,41
101.48,37
101.576,39
101.672,49
101.768,44
101.864,58
101.96,58
102.056,49
102.152,49
102.248,45
102.344,43
102.44,55
102.537,42
102.633,40
102.729,39
102.825,37
102.921,52
103.017,49
103.113,50
103.209,50
103.305,43
103.401,58
103.497,46
103.594,45
103.69,36
103.786,50
103.882,37
103.978,31
104.074,44
104.17,42
104.266,55
104.362,39
104.458,62
104.554,43
104.651,52
104.747,34
104.843,41
104.939,60
105.035,44
105.131,45
105.227,44
105.323,45
105.419,49
105.515,50
105.611,42
105.708,43
105.804,36
105.9,44
105.996,58
106.092,44
106.188,58
106.284,51
106.38,52
106.476,55
106.572,49
106.668,54
106.765,49
106.861,53
106.957,53
107.053,51
107.149,50
107.245,42
107.341,46
107.437,42
107.533,53
107.629,58
107.725,49
107.822,44
107.918,33
108.014,60
108.11,46
108.206,45
108.302,41
108.398,58
108.494,46
108.59,54
108.686,60
108.782,65
108.878,55
108.975,86
109.071,82
109.167,97
109.263,105
109.359,147
109.455,167
109.551,137
109.647,99
109.743,96
109.839,122
109.935,85
110.032,78
110.128,55
110.224,54
110.32,44
110.416,51
110.512,40
110.608,37
110.704,39
110.8,40
110.896,39
110.992,36
111.089,44
111.185,45
111.281,48
111.377,36
111.473,48
111.569,53
111.665,31
111.761,39
111.857,53
111.953,56
112.049,46
112.146,37
112.242,39
112.338,42
112.434,42
112.53,53
112.626,46
112.722,57
112.818,39
112.914,40
113.01,40
113.106,37
113.203,53
113.299,51
113.395,31
113.491,42
113.587,52
113.683,44
113.779,52
113.875,48
113.971,40
114.067,42
114.163,50
114.26,42
114.356,52
114.452,46
114.548,36
114.644,37
114.74,57
114.836,41
114.932,58
115.028,36
115.124,34
115.22,42
115.317,57
115.413,41
115.509,51
115.605,54
115.701,43
115.797,43
115.893,51
115.989,48
116.085,39
116.181,48
116.277,45
116.373,39
116.47,49
116.566,49
116.662,49
116.758,39
116.854,50
116.95,50
117.046,34
117.142,45
117.238,42
117.334,49
117.43,52
117.527,48
117.623,56
117.719,41
117.815,43
117.911,45
118.007,43
118.103,50
118.199,58
118.295,30
118.391,52
118.487,55
118.584,61
118.68,53
118.776,56
118.872,51
118.968,46
119.064,58
119.16,46
119.256,54
119.352,75
119.448,60
119.544,96
119.641,102
119.737,105
119.833,77
119.929,62
120.025,58
120.121,61
120.217,70
120.313,55
120.409,42
120.505,43
120.601,43
120.698,42
120.794,57
120.89,46
120.986,55
121.082,42
121.178,43
121.274,46
121.37,49
121.466,51
121.562,52
121.658,80
121.755,67
121.851,70
121.947,90
122.043,70
122.139,50
122.235,44
122.331,57
122.427,44
122.523,44
122.619,58
122.715,60
122.812,56
122.908,46
123.004,45
123.1,61
123.196,46
123.292,52
123.388,50
123.484,57
123.58,54
123.676,60
123.772,42
123.868,43
123.965,37
124.061,42
124.157,44
124.253,41
124.349,72
124.445,63
124.541,55
124.637,52
124.733,63
124.829,49
124.925,54
125.022,65
125.118,53
125.214,55
125.31,52
125.406,43
125.502,50
125.598,54
125.694,49
125.79,66
125.886,49
125.982,57
126.079,51
126.175,58
126.271,80
126.367,89
126.463,63
126.559,61
126.655,65
126.751,53
126.847,58
126.943,57
127.039,50
127.136,44
127.232,39
127.328,50
127.424,55
127.52,42
127.616,52
127.712,54
127.808,45
127.904,50
128,39
128.096,54
128.193,48
128.289,37
128.385,51
128.481,34
128.577,54
128.673,63
128.769,48
128.865,43
128.961,54
129.057,55
129.153,67
129.25,66
129.346,52
129.442,62
129.538,57
129.634,75
129.73,84
129.826,74
129.922,101
130.018,112
130.114,122
130.21,105
130.307,97
130.403,91
130.499,73
130.595,65
130.691,69
130.787,82
130.883,63
130.979,72
131.075,60
131.171,50
131.267,55
131.364,40
131.46,70
131.556,49
131.652,57
131.748,51
131.844,48
131.94,48
132.036,45
132.132,56
132.228,49
132.324,48
132.42,49
132.517,54
132.613,53
132.709,61
132.805,64
132.901,61
132.997,50
133.093,56
133.189,55
133.285,40
133.381,41
133.477,42
133.574,45
133.67,46
133.766,51
133.862,40
133.958,50
134.054,44
134.15,50
134.246,49
134.342,56
134.438,55
134.534,44
134.631,42
134.727,67
134.823,40
134.919,53
135.015,45
135.111,52
135.207,37
135.303,49
135.399,36
135.495,41
135.591,45
135.688,46
135.784,46
135.88,48
135.976,65
136.072,40
136.168,52
136.264,58
136.36,44
136.456,48
136.552,40
136.648,58
136.745,56
136.841,57
136.937,42
137.033,56
137.129,54
137.225,50
137.321,42
137.417,66
137.513,48
137.609,45
137.705,56
137.802,65
137.898,77
137.994,70
138.09,73
138.186,56
138.282,63
138.378,60
138.474,50
138.57,65
138.666,51
138.762,58
138.859,70
138.955,53
139.051,64
139.147,70
139.243,82
139.339,85
139.435,103
139.531,121
139.627,122
139.723,160
139.819,156
139.915,153
140.012,133
140.108,116
140.204,80
140.3,82
140.396,113
140.492,86
140.588,120
140.684,93
140.78,82
140.876,81
140.972,53
141.069,45
141.165,49
141.261,57
141.357,60
141.453,36
141.549,48
141.645,37
141.741,55
141.837,56
141.933,50
142.029,44
142.126,65
142.222,49
142.318,44
142.414,33
142.51,50
142.606,57
142.702,46
142.798,45
142.894,64
142.99,42
143.086,53
143.183,45
143.279,52
143.375,54
143.471,63
143.567,43
143.663,61
143.759,42
143.855,64
143.951,50
144.047,60
144.143,53
144.24,42
144.336,44
144.432,51
144.528,58
144.624,53
144.72,41
144.816,43
144.912,46
145.008,48
145.104,52
145.2,54
145.297,55
145.393,52
145.489,37
145.585,53
145.681,44
145.777,48
145.873,62
145.969,56
146.065,53
146.161,41
146.257,52
146.354,50
146.45,58
146.546,64
146.642,58
146.738,55
146.834,54
146.93,56
147.026,46
147.122,53
147.218,55
147.314,58
147.41,46
147.507,44
147.603,54
147.699,54
147.795,51
147.891,48
147.987,51
148.083,49
148.179,34
148.275,49
148.371,51
148.467,42
148.564,54
148.66,46
148.756,38
148.852,54
148.948,65
149.044,39
149.14,54
149.236,68
149.332,61
149.428,54
149.524,45
149.621,53
149.717,55
149.813,52
149.909,61
150.005,57